Folder: JWSTPAH/3_Hydrocarbons

Note: README.md
# ðŸŒŒWS JWST PAH Analysis Project
_A Study of Polycyclic Aromatic Hydrocarbons in NGC 7469_

---


![License](https://img.shields.io/github/license/Astro-cat-mistry/JWSTPAH)
![Python](https://img.shields.io/badge/python-3.9%2B-blue)

---

## Project Overview

The primary objective of this study is to analyze variations in PAH features across different regions within many galaxies.  
By using high-resolution data from JWSTâ€™s MIRI/IFU, we aim to trace changes in PAH size, charge, and composition from the galaxy's nucleus to its outskirts, gaining insights into PAH behavior under diverse galactic conditions.

This project utilizes the MIRI public database to study mid-IR PAH emission in nearby galaxies that exhibit both star-forming activity and active galactic nucleus (AGN) signatures. Our approach examines how the ISM astrochemistry, as revealed by PAH populations, is influenced by the dominant radiation field in each region.

---

## Goals

- Develop a scalable pipeline for PAH analysis across galaxies.
- Integrate the NASA/AMES PAH spectral database (PAHdb) for refined decomposition of PAH sub-populations (size, charge, structure).

---

## Data

- JWST/MIRI IFU spectral cubes (3D and 1D products).
- PAH database from Bauschlicher et al. (2018), Boersma et al. (2014), Mattioda et al. (2020).

---

## Repository Structure

- `1_Polycyclic/` â€” Data products (JSON, PDF, ECSV)
- `2_Aromatic/` â€” Jupyter notebooks for PAH analysis and visualization
- `3_Hydrocarbons/` â€” Processed spectral FITS files

---

## Installation

Clone the repository:
```bash
git clone https://github.com/Astro-cat-mistry/JWSTPAH.git
cd JWSTPAH
pip install -r requirements.txt

File: Ring1_pahonly.asc
x, y
cm-1, Jy
wavenumber, intensity
556.212, 7.112316e+03
558.542, 7.949107e+03
560.892, 8.943378e+03
563.261, 1.013825e+04
565.651, 1.160076e+04
568.061, 1.345516e+04
570.491, 1.598424e+04
572.943, 1.982044e+04
575.415, 2.431921e+04
577.909, 2.453132e+04
580.425, 2.410284e+04
582.963, 2.460134e+04
585.523, 2.509458e+04
588.106, 2.509279e+04
590.711, 2.449265e+04
593.34, 2.346407e+04
595.992, 2.237761e+04
598.668, 2.180487e+04
601.368, 2.273766e+04
604.093, 2.708615e+04
606.842, 3.477303e+04
609.617, 3.138980e+04
612.417, 2.080120e+04
615.243, 1.449096e+04
618.095, 1.111965e+04
620.973, 9.100214e+03
623.879, 7.751654e+03
626.812, 6.779394e+03
629.772, 6.041743e+03
632.761, 5.462819e+03
635.778, 4.998083e+03
638.825, 4.619398e+03
641.9, 4.307947e+03
645.005, 4.050598e+03
648.141, 3.837916e+03
651.307, 3.663011e+03
654.504, 3.520846e+03
657.732, 3.407825e+03
660.993, 3.321559e+03
664.286, 3.260783e+03
667.612, 3.225408e+03
670.972, 3.216759e+03
674.366, 3.238086e+03
677.794, 3.295561e+03
681.257, 3.400165e+03
684.756, 3.571343e+03
688.29, 3.843987e+03
691.862, 4.280686e+03
695.471, 4.983406e+03
699.117, 6.038023e+03
702.802, 7.143948e+03
706.527, 7.307265e+03
710.29, 6.495477e+03
714.094, 5.733215e+03
717.94, 5.374449e+03
721.826, 5.359824e+03
725.755, 5.613748e+03
729.727, 6.099559e+03
733.743, 6.776356e+03
737.803, 7.520104e+03
741.909, 8.100668e+03
746.06, 8.392052e+03
750.258, 8.576441e+03
754.503, 8.950253e+03
758.797, 9.719236e+03
763.14, 1.103514e+04
767.533, 1.310050e+04
771.977, 1.627217e+04
776.473, 2.124266e+04
781.021, 2.962320e+04
785.623, 4.442666e+04
790.28, 4.851611e+04
794.992, 3.853428e+04
799.76, 3.089108e+04
804.586, 2.444519e+04
809.471, 1.947490e+04
814.415, 1.601444e+04
819.42, 1.377533e+04
824.487, 1.245467e+04
829.617, 1.183897e+04
834.812, 1.181322e+04
840.071, 1.236668e+04
845.398, 1.361061e+04
850.792, 1.580990e+04
856.267, 1.948583e+04
861.059, 2.458637e+04
865.82, 3.243531e+04
868.753, 3.928109e+04
871.707, 4.819638e+04
874.68, 5.953736e+04
877.674, 7.352955e+04
880.689, 9.094316e+04
883.724, 1.158174e+05
886.78, 1.574668e+05
889.858, 1.992075e+05
892.957, 1.663552e+05
896.077, 1.061391e+05
899.22, 6.906944e+04
902.385, 4.869816e+04
905.572, 3.678285e+04
908.781, 2.931346e+04
912.013, 2.440910e+04
915.269, 2.114083e+04
918.548, 1.904315e+04
921.85, 1.791607e+04
925.176, 1.774387e+04
928.527, 1.860853e+04
931.901, 2.032898e+04
935.301, 2.156696e+04
938.725, 2.033064e+04
942.174, 1.721056e+04
945.649, 1.420712e+04
949.149, 1.202004e+04
952.676, 1.052891e+04
956.229, 9.505163e+03
959.808, 8.784030e+03
963.414, 8.263145e+03
967.048, 7.880018e+03
970.709, 7.595729e+03
974.398, 7.385285e+03
978.115, 7.232112e+03
981.86, 7.124903e+03
985.634, 7.055754e+03
989.438, 7.019040e+03
993.271, 7.010716e+03
997.133, 7.027867e+03
1001.03, 7.068418e+03
1004.95, 7.130935e+03
1008.9, 7.214499e+03
1012.89, 7.318621e+03
1016.91, 7.443179e+03
1020.96, 7.588392e+03
1025.04, 7.754800e+03
1029.15, 7.943265e+03
1033.3, 8.154984e+03
1037.48, 8.391517e+03
1041.69, 8.654825e+03
1045.94, 8.947337e+03
1050.23, 9.272020e+03
1054.55, 9.632496e+03
1058.9, 1.003317e+04
1063.29, 1.047944e+04
1067.72, 1.097791e+04
1072.18, 1.153674e+04
1076.69, 1.216608e+04
1081.23, 1.287868e+04
1085.81, 1.369069e+04
1090.42, 1.462285e+04
1095.08, 1.570203e+04
1099.78, 1.696358e+04
1104.51, 1.845448e+04
1109.29, 2.023809e+04
1114.11, 2.240063e+04
1118.98, 2.506031e+04
1123.88, 2.837895e+04
1128.83, 3.257397e+04
1133.82, 3.792147e+04
1138.85, 4.472103e+04
1143.94, 5.314920e+04
1149.06, 6.287677e+04
1154.23, 7.244151e+04
1159.45, 7.906972e+04
1164.72, 8.031762e+04
1170.04, 7.657932e+04
1175.4, 7.071251e+04
1180.81, 6.536042e+04
1186.27, 6.165673e+04
1191.79, 5.956491e+04
1197.35, 5.852444e+04
1202.97, 5.796777e+04
1208.64, 5.767881e+04
1214.37, 5.785037e+04
1220.14, 5.886383e+04
1225.98, 6.107060e+04
1231.87, 6.472927e+04
1237.82, 7.003101e+04
1243.82, 7.710719e+04
1249.88, 8.595660e+04
1256.01, 9.626433e+04
1262.19, 1.071647e+05
1268.43, 1.172101e+05
1274.74, 1.249589e+05
1281.11, 1.300680e+05
1287.54, 1.337621e+05
1294.04, 1.379114e+05
1300.6, 1.434598e+05
1307.21, 1.491925e+05
1312.56, 1.517444e+05
1317.96, 1.506046e+05
1323.4, 1.454010e+05
1328.89, 1.373351e+05
1333.69, 1.293999e+05
1337.97, 1.224257e+05
1342.28, 1.158792e+05
1346.62, 1.098917e+05
1350.99, 1.044603e+05
1355.38, 9.951818e+04
1359.8, 9.497951e+04
1364.26, 9.076374e+04
1368.74, 8.680607e+04
1373.25, 8.306010e+04
1377.79, 7.949644e+04
1382.36, 7.609969e+04
1386.96, 7.286499e+04
1391.59, 6.979475e+04
1396.26, 6.689600e+04
1400.95, 6.417839e+04
1405.68, 6.165275e+04
1410.44, 5.933018e+04
1415.23, 5.722161e+04
1420.05, 5.533751e+04
1424.91, 5.368786e+04
1429.8, 5.228193e+04
1434.72, 5.112809e+04
1439.68, 5.023301e+04
1444.67, 4.960043e+04
1449.7, 4.922899e+04
1454.76, 4.910894e+04
1459.85, 4.921774e+04
1464.99, 4.951480e+04
1470.16, 4.993659e+04
1475.36, 5.039437e+04
1480.6, 5.077783e+04
1485.88, 5.096762e+04
1491.2, 5.085726e+04
1496.56, 5.037916e+04
1501.95, 4.952543e+04
1507.39, 4.835371e+04
1512.86, 4.697564e+04
1518.37, 4.553424e+04
1523.93, 4.418088e+04
1529.52, 4.306052e+04
1535.16, 4.230826e+04
1540.83, 4.205607e+04
1546.55, 4.244744e+04
1552.31, 4.365845e+04
1558.12, 4.592591e+04
1563.97, 4.958393e+04
1569.86, 5.510818e+04
1575.8, 6.315321e+04
1581.78, 7.451953e+04
1587.81, 8.985138e+04
1593.88, 1.086212e+05
1600, 1.270998e+05
1606.17, 1.373939e+05
1612.38, 1.327932e+05
1618.65, 1.156971e+05
1624.96, 9.458462e+04
1631.32, 7.559255e+04
1637.73, 6.062310e+04
1644.2, 4.939958e+04
1650.71, 4.108452e+04
1657.28, 3.489698e+04
1663.89, 3.024734e+04
1670.56, 2.672165e+04
1677.29, 2.403797e+04
1684.07, 2.200860e+04
1690.9, 2.051362e+04
1697.79, 1.948437e+04
1704.74, 1.889413e+04
1711.74, 1.875297e+04
1718.8, 1.910118e+04
1725.92, 1.998791e+04
1733.1, 2.140465e+04
1740.34, 2.313184e+04
1747.64, 2.454829e+04
1755, 2.475700e+04
1762.43, 2.332882e+04
1769.91, 2.079237e+04
1777.46, 1.803428e+04
1785.08, 1.560581e+04
1792.76, 1.366460e+04
1800.5, 1.217642e+04
1808.32, 1.105780e+04
1816.2, 1.023282e+04
1824.15, 9.647972e+03
1832.17, 9.273260e+03
1840.26, 9.100929e+03
1848.43, 9.145067e+03
1856.67, 9.441262e+03
1864.98, 1.003937e+04
1873.36, 1.096781e+04
1881.82, 1.212619e+04
1890.36, 1.311043e+04
1898.97, 1.326548e+04
1907.67, 1.231353e+04
1916.44, 1.072471e+04
1925.3, 9.119181e+03
1934.24, 7.787108e+03
1943.26, 6.759666e+03
1952.36, 5.979053e+03
1961.55, 5.379659e+03
1970.83, 4.909768e+03
1980.2, 4.532605e+03
1989.65, 4.222791e+03
1999.2, 3.962839e+03
2008.84, 3.740573e+03
2018.57, 3.547378e+03
2028.4, 3.377054e+03
2038.32, 3.225052e+03
2040.65, 3.191839e+03